Folder: transonic-demos/crystallography

Note: crystallography/Input_resolution.txt
0.00000000
0.00000000
0.00000000
0.00000000
0.00000000
0.00000000
0.00000000
0.00000000
0.00000000
0.00000000
0.00000000
0.00000000
0.00000000
0.00000000
0.00000000
0.00000000
0.00000000
0.00000000
0.00000000
0.00000000
0.00000000
0.00000000
0.00000000
0.00000000
0.00000000
0.00000000
0.00000000
0.00000000
0.00000000
0.00000000
0.00000000
0.00000000
0.00000000
0.00000000
0.00000000
0.00000000
0.00000000
0.00000000
0.00000000
0.00000000
0.00000000
0.00000000
0.00000000
0.00000000
0.00000000
0.00000000
0.00000000
0.00000000
0.00000000
0.00000000
0.00000000
0.00000000
0.00000000
0.00000000
0.00000000
0.00000000
0.00000000
0.00000000
0.00000000
0.00000000
0.00000000
0.00000000
0.00000000
0.00000000
0.00000000
0.00000000
0.00000000
0.00000000
0.00000000
0.00000000
0.00000000
0.00000000
0.00000000
0.00000000
0.00000000
0.00000000
0.00000000
0.00000000
0.00000000
0.00000000
0.00000000
0.00000000
0.00000000
0.00000000
0.00000000
0.00000000
0.00000000
0.00000000
0.00000000
0.00000000
0.00000000
0.00000000
0.00000000
0.00000000
0.00000000
0.00000000
0.00000000
0.00000000
0.00000000
0.00000000
0.00000000
0.00000000
0.00000000
0.00000000
0.00000000
0.00000000
0.00000000
0.00000000
0.00000000
0.00000000
0.00000000
0.00000000
0.00000000
0.00000000
0.00000000
0.00000000
0.00000000
0.00000000
0.00000000
0.00000000
0.00000000
0.00000000
0.00000000
0.00000000
0.00000000
0.00000000
0.00000000
0.00000000
0.00000000
0.00000000
0.00000000
0.00000000
0.00000000
0.00000000
0.00000000
0.00000000
0.00000000
0.00000000
0.00000000
0.00000000
0.00000000
0.00000000
0.00000000
0.00000000
0.00000000
0.00000000
0.00000000
0.00000000
0.00000000
0.00000000
0.00000000
0.00000000
0.00000000
0.00000000
0.00000000
0.00000000
0.00000000
0.00000000
0.00000000
0.00000000
0.00000000
0.00000000
0.00000000
0.00000000
0.00000000
0.00000000
0.00000000
0.00000000
0.00000000
0.00000000
0.00000000
0.00000000
0.00000000
0.00000000
0.00000000
0.00000000
0.00000000
0.00000000
0.00000000
0.00000000
0.00000000
0.00000000
0.00000000
0.00000000
0.00000000
0.00000000
0.00000000
0.00000000
0.00000000
0.00000000
0.00000000
0.00000000
0.00000000
0.00000000
0.00000000
0.00000000
0.00000000
0.00000000
0.00000000
0.00000000
0.00000000
0.00000000
0.00000000
0.00000000
0.00000000
0.00000000
0.00000000
0.00000000
0.00000000
0.00000000
0.00000001
0.00000001
0.00000001
0.00000001
0.00000001
0.00000001
0.00000001
0.00000002
0.00000006
0.00000015
0.00000040
0.00000103
0.00000260
0.00000641
0.00001527
0.00003524
0.00007872
0.00017019
0.00035607
0.00072094
0.00141259
0.00267848
0.00491486
0.00872740
0.01499714
0.02493918
0.04013341
0.06250003
0.09418991
0.13736582
0.19386661
0.26477528
0.34994671
0.44758596
0.55398890
0.66355318
0.76913127
0.86273072
0.93648347
0.98372799
1.00000000
0.98372799
0.93648347
0.86273072
0.76913127
0.66355318
0.55398890
0.44758596
0.34994671
0.26477528
0.19386661
0.13736582
0.09418991
0.06250003
0.04013341
0.02493918
0.01499714
0.00872740
0.00491486
0.00267848
0.00141259
0.00072094
0.000356

Note: crystallography/Input_strain_DW.txt
2000.00000000 0.00000000 1.00000000
1990.00000000 0.00000001 1.00000000
1980.00000000 0.00000005 1.00000000
1970.00000000 0.00000017 1.00000000
1960.00000000 0.00000039 1.00000000
1950.00000000 0.00000077 1.00000000
1940.00000000 0.00000133 1.00000000
1930.00000000 0.00000211 1.00000000
1920.00000000 0.00000316 1.00000000
1910.00000000 0.00000449 1.00000000
1900.00000000 0.00000616 1.00000000
1890.00000000 0.00000820 1.00000000
1880.00000000 0.00001065 1.00000000
1870.00000000 0.00001354 1.00000000
1860.00000000 0.00001691 1.00000000
1850.00000000 0.00002080 1.00000000
1840.00000000 0.00002525 1.00000000
1830.00000000 0.00003028 1.00000000
1820.00000000 0.00003595 1.00000000
1810.00000000 0.00004228 1.00000000
1800.00000000 0.00004931 1.00000000
1790.00000000 0.00005708 1.00000000
1780.00000000 0.00006563 1.00000000
1770.00000000 0.00007500 1.00000000
1760.00000000 0.00008521 1.00000000
1750.00000000 0.00009631 1.00000000
1740.00000000 0.00010834 1.00000000
1730.00000000 0.00012133 1.00000000
1720.00000000 0.00013531 1.00000000
1710.00000000 0.00015033 1.00000000
1700.00000000 0.00016643 1.00000000
1690.00000000 0.00018363 1.00000000
1680.00000000 0.00020198 1.00000000
1670.00000000 0.00022152 1.00000000
1660.00000000 0.00024227 0.99999954
1650.00000000 0.00026428 0.99999287
1640.00000000 0.00028756 0.99997078
1630.00000000 0.00031216 0.99992405
1620.00000000 0.00033809 0.99984342
1610.00000000 0.00036539 0.99971966
1600.00000000 0.00039408 0.99954351
1590.00000000 0.00042420 0.99930573
1580.00000000 0.00045577 0.99899709
1570.00000000 0.00048882 0.99860833
1560.00000000 0.00052338 0.99813021
1550.00000000 0.00055948 0.99755350
1540.00000000 0.00059714 0.99686893
1530.00000000 0.00063640 0.99606728
1520.00000000 0.00067729 0.99513929
1510.00000000 0.00071982 0.99407572
1500.00000000 0.00076404 0.99286733
1490.00000000 0.00080997 0.99150488
1480.00000000 0.00085763 0.98997912
1470.00000000 0.00090706 0.98828080
1460.00000000 0.00095829 0.98640069
1450.00000000 0.00101134 0.98432953
1440.00000000 0.00106624 0.98205809
1430.00000000 0.00112303 0.97957712
1420.00000000 0.00118172 0.97687738
1410.00000000 0.00124235 0.97394962
1400.00000000 0.00130495 0.97078460
1390.00000000 0.00136955 0.96737307
1380.00000000 0.00143617 0.96370580
1370.00000000 0.00150484 0.95977353
1360.00000000 0.00157560 0.95556703
1350.00000000 0.00164846 0.95107704
1340.00000000 0.00172347 0.94629433
1330.00000000 0.00180063 0.94120985
1320.00000000 0.00187993 0.93582657
1310.00000000 0.00196122 0.93016606
1300.00000000 0.00204436 0.92425150
1290.00000000 0.00212919 0.91810608
1280.00000000 0.00221558 0.91175295
1270.00000000 0.00230337 0.90521532
1260.00000000 0.00239242 0.89851635
1250.00000000 0.00248258 0.89167922
1240.00000000 0.00257371 0.88472711
1230.00000000 0.00266566 0.87768320
1220.00000000 0.00275829 0.87057066
1210.00000000 0.00285144 0.86341269
1200.00000000 0.00294497 0.85623244
1190.00000000 0.00303874 0.84905310
1180.00000000 0.00313260 0.84189786
1170.0000000

Note: crystallography/README.md
# Examples from High-performance Python for crystallographic computing

Taken from Boulle, A. & Kieffer, J. (2019). J. Appl. Cryst. 52, 882-897.
https://doi.org/10.1107/S1600576719008471

Licensed under the CC BY License.

File: Input_XRD.txt
72.788 0.01938
72.792 0.01938
72.796 0.0323
72.8 0.03876
72.804 0.01292
72.808 0.05167
72.812 0.01938
72.816 0.0323
72.82 0.04521
72.824 0.05813
72.828 0.01938
72.832 0.03876
72.836 0.01938
72.84 0.05813
72.844 0.01938
72.848 0.04521
72.852 0.02584
72.856 0.05813
72.86 0.05813
72.864 0.04521
72.868 0.05167
72.872 0.03876
72.876 0.09043
72.88 0.04521
72.884 0.07751
72.888 0.05167
72.892 0.09043
72.896 0.07751
72.9 0.09043
72.904 0.08397
72.908 0.07105
72.912 0.04521
72.916 0.08397
72.92 0.12273
72.924 0.09689
72.928 0.14856
72.932 0.10335
72.936 0.15502
72.94 0.09043
72.944 0.10981
72.948 0.10335
72.952 0.04521
72.956 0.08397
72.96 0.05813
72.964 0.09689
72.968 0.04521
72.972 0.06459
72.976 0.02584
72.98 0.03876
72.984 0.09043
72.988 0.07105
72.992 0.12273
72.996 0.25191
73 0.28421
73.004 0.51676
73.008 0.51676
73.012 0.94311
73.016 1.0271
73.02 1.47287
73.024 1.74423
73.028 2.31928
73.032 2.52605
73.036 3.2692
73.04 4.0189
73.044 4.55537
73.048 5.62845
73.052 6.24264
73.056 6.83102
73.06 7.63933
73.064 8.90697
73.068 9.72848
73.072 10.91888
73.076 11.93477
73.08 12.65958
73.084 13.30681
73.088 14.34897
73.092 15.46253
73.096 15.77332
73.1 16.3043
73.104 17.69669
73.108 17.07493
73.112 17.24331
73.116 16.80294
73.12 16.78351
73.124 15.91577
73.128 15.74742
73.132 14.67914
73.136 13.93467
73.14 13.6175
73.144 11.883
73.148 10.90593
73.152 10.23308
73.156 8.59004
73.16 7.18667
73.164 6.31376
73.168 4.72989
73.172 4.08353
73.176 3.05594
73.18 2.29344
73.184 1.783
73.188 1.36304
73.192 1.04002
73.196 0.87206
73.2 0.86559
73.204 1.07232
73.208 1.55687
73.212 1.87345
73.216 2.11252
73.22 2.80392
73.224 3.41138
73.228 3.52771
73.232 3.81208
73.236 4.12877
73.24 4.44548
73.244 4.58769
73.248 4.76868
73.252 4.74928
73.256 4.43256
73.26 4.52952
73.264 3.98658
73.268 3.79268
73.272 3.1141
73.276 2.79746
73.28 2.41621
73.284 2.2482
73.288 1.66024
73.292 1.56979
73.296 1.60209
73.3 1.52456
73.304 1.26614
73.308 1.783
73.312 1.83468
73.316 1.99621
73.32 2.25466
73.324 2.78453
73.328 3.00424
73.332 3.28859
73.336 3.54709
73.34 3.6505
73.344 3.65696
73.348 3.78623
73.352 3.36614
73.356 3.13349
73.36 3.46954
73.364 3.02363
73.368 2.71991
73.372 2.30636
73.376 2.33221
73.38 2.21589
73.384 2.00913
73.388 2.1319
73.392 2.3839
73.396 2.39036
73.4 2.64883
73.404 2.87501
73.408 3.2692
73.412 3.30151
73.416 3.61172
73.42 3.85086
73.424 4.07707
73.428 4.54891
73.432 4.36792
73.436 4.75574
73.44 4.45841
73.444 3.92841
73.448 4.02536
73.452 4.04475
73.456 3.98012
73.46 3.8444
73.464 3.79914
73.468 4.14816
73.472 4.33561
73.476 4.67818
73.48 4.86564
73.484 5.46683
73.488 6.081
73.492 6.41722
73.496 7.34187
73.5 7.67166
73.504 8.13084
73.508 8.93932
73.512 9.07514
73.516 10.1231
73.52 10.5048
73.524 11.31356
73.528 12.98966
73.532 15.17765
73.536 19.03756
73.54 27.93188
73.544 49.61592
73.548 103.407
73.552 216.497
73.556 402.843
73.56 618.569
73.564 790.654
73.568 931.123
73.572 1050.34
73.576 1093.27
73.58 955.33
73.584 703.615
73.588 451.49
73.592 250.205
73.596 123.113
73.6 56.18679
73.604 24.40381
73.608 10.45304
73.612 5.03371
73.616 2.85562
73.62 1.70546
73.624 1.14339
73.628 0.86559
73.632 0.6718
73.636 0.478
73.64 0.32297
73.644 0.18086
73.648 0.23899
73.652 0.1744
73.656 0.15502
73.66 0.09689
73.664 0.1744
73.668 0.09689
73.672 0.10335
73.676 0.10335
73.68 0.07105
73.684 0.08397
73.688 0.08397
73.692 0.05167
73.696 0.08397
73.7 0.08397
73.704 0.06459
73.708 0.06459
73.712 0.03876
73.716 0.02584
73.72 0.05167
73.724 0.02584
73.728 0.09043
73.732 0.05813
73.736 0.03876
73.74 0.05167
73.744 0.04521
73.748 0.01938
73.752 0.03876
73.756 0.04521
73.76 0.03876
73.764 0.01292
73.768 0.03876
73.772 0.03876
73.776 0.05167
73.78 0.06459
73.784 0.05167
73.788 0.08397